<?xml version="1.0" encoding="UTF-8"?>
<Bundle xmlns="http://hl7.org/fhir" xmlns:xhtml="http://www.w3.org/1999/xhtml">
	<type value="batch"/>
	<entry>
		<fullUrl value="http://test.fhir.org/r3/Organization/acme-lab"/>
		<resource>
			<Organization>
	<id value="acme-lab"/>
	<meta>
					<profile value="http://hl7.org/fhir/us/core/StructureDefinition/us-core-organization"/>
				</meta>
	<identifier>
		<system value="http://hl7.org.fhir/sid/us-npi"/>
		<value value="1144221847"/>
	</identifier>
	<identifier>
		<system value="http://www.acme.org/organization"/>
		<value value="2523423456"/>
	</identifier>
	<active value="true"/>
	<type>
		<coding>
			<system value="http://hl7.org/fhir/organization-type"/>
			<code value="prov"/>
			<display value="Healthcare Provider"/>
		</coding>
	</type>
	<name value="Acme Labs"/>
	<telecom>
		<system value="phone"/>
		<value value="(+1) 734-677-7777"/>
	</telecom>
	<telecom>
		<system value="email"/>
		<value value="hq@acme.org"/>
	</telecom>
	<address>
		<line value="3300 Washtenaw Avenue, Suite 227"/>
		<city value="Amherst"/>
		<state value="MA"/>
		<postalCode value="01002"/>
		<country value="USA"/>
	</address>
</Organization>
		</resource>
		<request>
			<method value="PUT"/>
			<url value="Organization/acme-lab"/>
		</request>
	</entry>
	<entry>
		<fullUrl value="http://test.fhir.org/r3/Location/hl7east"/>
		<resource>
			<Location>
	<id value="hl7east"/>
		<meta>
		<profile value="http://hl7.org/fhir/us/core/StructureDefinition/us-core-location"/>
	</meta>
	<!--   HL7 East   -->
	<identifier>
		<system value="http://www.acme.org/location"/>
		<value value="29"/>
	</identifier>
	<status value="active"/>
	<name value="Health Level Seven International - Amherst"/>
	<description value="HL7 Headquarters - East"/>
	<telecom>
		<system value="phone"/>
		<value value="(+1) 734-677-7777"/>
	</telecom>
	<address>
		<line value="3300 Washtenaw Avenue, Suite 227"/>
		<city value="Amherst"/>
		<state value="MA"/>
		<postalCode value="01002"/>
		<country value="USA"/>
	</address>
	<position>
		<longitude value="-72.519854"/>
		<latitude value="42.373222"/>
	</position>
	<managingOrganization>
		<display value="Health Level Seven International"/>
	</managingOrganization>
</Location>
		</resource>
		<request>
			<method value="PUT"/>
			<url value="Location/hl7east"/>
		</request>
	</entry>
	<entry>
		<fullUrl value="http://test.fhir.org/r3/MeasureReport/mrp-example1"/>
		<resource>
			<MeasureReport>
	<id value="mrp-example1"/>
	<status value="complete"/>
	<type value="individual"/>
	<measure>
		<display value="MRP"/>
	</measure>
	<patient>
		<reference value="Patient/example"/>
	</patient>
	<date value="2018-06-11"/>
	<reportingOrganization>
		<reference value="Organization/acme-lab"/>
	</reportingOrganization>
	<period>
		<start value="2018-06-11"/>
		<end value="2018-07-11"/>
	</period>
	<evaluatedResources>
		<extension url="hl7.org/fhir/us/davinci-deqm/StructureDefinition/extension-referenceAny">
			<valueReference>
				<reference value="Task/mrp-example1"/>
			</valueReference>
		</extension>
		<extension url="hl7.org/fhir/us/davinci-deqm/StructureDefinition/extension-referenceAny">
			<valueReference>
				<reference value="Task/mrp-example1"/>
			</valueReference>
		</extension>
	</evaluatedResources>
</MeasureReport>
		</resource>
		<request>
			<method value="PUT"/>
			<url value="MeasureReport/mrp-example1"/>
		</request>
	</entry>
	<entry>
		<fullUrl value="http://test.fhir.org/r3/Patient/example"/>
		<resource>
			<Patient>
	<id value="example"/>
	<meta>
		<profile value="http://hl7.org/fhir/us/core/StructureDefinition/us-core-patient"/>
	</meta>
	<extension url="http://hl7.org/fhir/us/core/StructureDefinition/us-core-race">
		<extension url="ombCategory">
			<valueCoding>
				<system value="urn:oid:2.16.840.1.113883.6.238"/>
				<code value="2106-3"/>
				<display value="White"/>
			</valueCoding>
		</extension>
		<extension url="ombCategory">
			<valueCoding>
				<system value="urn:oid:2.16.840.1.113883.6.238"/>
				<code value="1002-5"/>
				<display value="American Indian or Alaska Native"/>
			</valueCoding>
		</extension>
		<extension url="ombCategory">
			<valueCoding>
				<system value="urn:oid:2.16.840.1.113883.6.238"/>
				<code value="2028-9"/>
				<display value="Asian"/>
			</valueCoding>
		</extension>
		<extension url="detailed">
			<valueCoding>
				<system value="urn:oid:2.16.840.1.113883.6.238"/>
				<code value="1586-7"/>
				<display value="Shoshone"/>
			</valueCoding>
		</extension>
		<extension url="detailed">
			<valueCoding>
				<system value="urn:oid:2.16.840.1.113883.6.238"/>
				<code value="2036-2"/>
				<display value="Filipino"/>
			</valueCoding>
		</extension>
		<extension url="text">
			<valueString value="Mixed"/>
		</extension>
	</extension>
	<extension url="http://hl7.org/fhir/us/core/StructureDefinition/us-core-ethnicity">
		<extension url="ombCategory">
			<valueCoding>
				<system value="urn:oid:2.16.840.1.113883.6.238"/>
				<code value="2135-2"/>
				<display value="Hispanic or Latino"/>
			</valueCoding>
		</extension>
		<extension url="detailed">
			<valueCoding>
				<system value="urn:oid:2.16.840.1.113883.6.238"/>
				<code value="2184-0"/>
				<display value="Dominican"/>
			</valueCoding>
		</extension>
		<extension url="detailed">
			<valueCoding>
				<system value="urn:oid:2.16.840.1.113883.6.238"/>
				<code value="2148-5"/>
				<display value="Mexican"/>
			</valueCoding>
		</extension>
		<extension url="text">
			<valueString value="Hispanic or Latino"/>
		</extension>
	</extension>
	<extension url="http://hl7.org/fhir/us/core/StructureDefinition/us-core-birthsex">
		<valueCode value="F"/>
	</extension>
	<identifier>
		<use value="usual"/>
		<type>
			<coding>
				<system value="http://hl7.org/fhir/v2/0203"/>
				<code value="MR"/>
				<display value="Medical Record Number"/>
			</coding>
			<text value="Medical Record Number"/>
		</type>
		<system value="http://hospital.smarthealthit.org"/>
		<value value="1032702"/>
	</identifier>
	<active value="true"/>
	<name>
		<family value="Shaw"/>
		<given value="Amy"/>
		<given value="V."/>
	</name>
	<telecom>
		<system value="phone"/>
		<value value="555-555-5555"/>
		<use value="home"/>
	</telecom>
	<telecom>
		<system value="email"/>
		<value value="amy.shaw@example.com"/>
	</telecom>
	<gender value="female"/>
	<birthDate value="2007-02-20"/>
	<address>
		<line value="49 Meadow St"/>
		<city value="Mounds"/>
		<state value="OK"/>
		<postalCode value="74047"/>
		<country value="US"/>
	</address>
</Patient>
		</resource>
		<request>
			<method value="PUT"/>
			<url value="Patient/example"/>
		</request>
	</entry>
	<entry>
		<fullUrl value="http://test.fhir.org/r3/Practitioner/practitioner-1"/>
		<resource>
			<Practitioner>
	<id value="practitioner-1"/>
	<meta>
		<profile value="http://hl7.org/fhir/us/core/StructureDefinition/us-core-practitioner"/>
	</meta>
	<identifier>
		<system value="http://hl7.org.fhir/sid/us-npi"/>
		<value value="9941339108"/>
	</identifier>
	<identifier>
		<system value="http://www.acme.org/practitioners"/>
		<value value="25456"/>
	</identifier>
	<name>
		<family value="Bone"/>
		<given value="Ronald"/>
		<prefix value="Dr"/>
	</name>
	<address>
		<use value="home"/>
		<line value="1003 Healthcare Drive"/>
		<city value="Amherst"/>
		<state value="MA"/>
		<postalCode value="01002"/>
	</address>
</Practitioner>
		</resource>
		<request>
			<method value="PUT"/>
			<url value="Practitioner/practitioner-1"/>
		</request>
	</entry>
	<entry>
		<fullUrl value="http://test.fhir.org/r3/PractitionerRole/PractitionerRole-1"/>
		<resource>
			<PractitionerRole>
    <id value="PractitionerRole-1"/>
    <meta>
        <profile value="http://hl7.org/fhir/us/core/StructureDefinition/us-core-practitionerrole"/>
    </meta>
    <practitioner>
        <reference value="Practitioner/Practitioner-1"/>
        <display value="Dr Ronald Bone"/>
    </practitioner>
    <organization>
        <reference value="Organization/acme-lab"/>
        <display value="Acme Lab"/>
    </organization>
    <code>
        <coding>
            <system value="http://nucc.org/provider-taxonomy"/>
            <code value="261QP2300X"/>
            <display value="Doctor"/>
        </coding>
    </code>
    <specialty>
        <coding>
            <system value="http://nucc.org/provider-taxonomy"/>
            <code value="208D00000X"/>
            <display value="General Practice"/>
        </coding>
    </specialty>
    <location>
        <reference value="Location/hl7east"/>
        <display value="Health Level Seven International"/>
    </location>
    <endpoint>
        <reference value="http://52.90.126.238:8080/fhir/baseDstu3/Endpoint/Endpoint-71"/>
        <display value="Westwood Physicians Organization ADT"/>
    </endpoint>
    <endpoint>
        <reference value="http://52.90.126.238:8080/fhir/baseDstu3/Endpoint/Endpoint-71"/>
        <display value="Brenda.Jennings.Richard.MD@direct.example.org"/>
    </endpoint>
</PractitionerRole>
		</resource>
		<request>
			<method value="PUT"/>
			<url value="PractitionerRole/PractitionerRole-1"/>
		</request>
	</entry>
	<entry>
		<fullUrl value="http://test.fhir.org/r3/Task/mrp-example1"/>
		<resource>
			<Task>
	<id value="mrp-example1"/>
	<extension url="hl7.org/fhir/us/davinci-deqm/StructureDefinition/extension-task-location">
		<valueReference>
			<reference value="Location/hl7east"/>
		</valueReference>
	</extension>
	<status value="completed"/>
	<intent value="order"/>
	<code>
		<coding>
			<system value="http://www.ama-assn.org/go/cpt"/>
			<code value="1111F"> </code>
			<display value="Medication Reconciliation "/>
		</coding>
		<text value="Medication Reconciliation"/>
	</code>
	<!-- what is MRP focus -  if needed - going to be?  multiple MedStatements or List -->
	<!--
	<focus>
		<reference value="MedicationRequest/medrx002"/>
	</focus>
-->
	<for>
		<reference value="Patient/example"/>
	</for>
	<authoredOn value="2018-06-11"/>
	<lastModified value="2018-06-11"/>
	<owner>
		<extension url="hl7.org/fhir/us/davinci-deqm/StructureDefinition/extension-prr">
			<valueReference>
				<reference value="PractitionerRole/example"/>
			</valueReference>
		</extension>
	</owner>
</Task>
		</resource>
		<request>
			<method value="PUT"/>
			<url value="Task/mrp-example1"/>
		</request>
	</entry>
</Bundle>
